onset	duration	trial_type	accuracy	response_time	premise1	premise2	premise3	conclusion	stim_file
0.0	16.902	2_false_affirm	0.0	n/a	Ned is slower than Max	Max is slower than Sam	Sam is slower than Rob	Sam is slower than Ned	Ned_2_false_affirm.wav
16.902	17.239	2_false_affirm	0.0	n/a	Nat is smaller than Rex	Rex is smaller than Bud	Bud is smaller than Doc	Doc is smaller than Nat	Nat_3_false_affirm.wav
34.141	6.472	control	0.0	n/a	n/a	n/a	n/a	n/a	n/a
40.613	16.895	2_true_affirm	0.0	n/a	Abe is taller than Ben	Ben is taller than Edd	Edd is taller than Fay	Abe is taller than Edd	Abe_2_true_affirm.wav
57.508	17.704	2_true_negate	0.0	n/a	Tai is shorter than Rex	Rex is shorter than Van	Van is shorter than Sol	Sol is not shorter than Tai	Tai_3_true_negate.wav
75.212	16.836	2_true_affirm	0.0	n/a	Lex is shorter than Jon	Jon is shorter than Moe	Moe is shorter than Nat	Lex is shorter than Nat	Lex_3_true_affirm.wav
92.04799999999999	5.678999999999999	control	0.0	n/a	n/a	n/a	n/a	n/a	n/a
97.727	17.641	2_true_affirm	0.0	n/a	Don is younger than Lee	Lee is younger than Mac	Mac is younger than Tom	Don is younger than Mac	Don_2_true_affirm.wav
115.368	7.222	control	0.0	n/a	n/a	n/a	n/a	n/a	n/a
122.59	6.476	control	0.0	n/a	n/a	n/a	n/a	n/a	n/a
129.066	17.703	2_false_negate	0.0	n/a	Bee is younger than Ted	Ted is younger than Rae	Rae is younger than Jon	Bee is not younger than Jon	Bee_3_false_negate.wav
146.769	15.574000000000002	2_true_affirm	1.0	5.915	Ebb is bigger than Pit	Pit is bigger than Ann	Ann is bigger than Ebb	Ebb is bigger than Ann	Ebb_2_true_affirm.wav
162.343	7.275	control	0.0	n/a	n/a	n/a	n/a	n/a	n/a
169.618	17.230999999999998	2_true_affirm	0.0	n/a	Jep is older than Nan	Nan is older than Lem	Lem is older than Sue	Jep is older than Sue	Jep_3_true_affirm.wav
186.84900000000002	5.11	control	0.0	2.22	n/a	n/a	n/a	n/a	n/a
191.959	17.308	2_false_negate	0.0	n/a	Dre is faster than Sue	Sue is faster than Ike	Ike is faster than Don	Dre is not faster than Ike	Dre_2_false_negate.wav
209.267	16.899	2_false_affirm	0.0	n/a	Don is bigger than Abe	Abe is bigger than Pam	Pam is bigger than Rex	Pam is bigger than Don	Don_2_false_affirm.wav
226.166	16.835	2_true_affirm	0.0	n/a	Don is faster than Max	Max is faster than Dee	Dee is faster than Sky	Don is faster than Sky	Don_3_true_affirm.wav
243.00099999999998	3.762	control	1.0	0.5479999999999999	n/a	n/a	n/a	n/a	n/a
246.763	3.6439999999999997	control	1.0	0.833	n/a	n/a	n/a	n/a	n/a
250.407	6.3660000000000005	control	1.0	2.66	n/a	n/a	n/a	n/a	n/a
256.77299999999997	17.686	2_true_affirm	0.0	n/a	Joy is bigger than Gus	Gus is bigger than Ace	Ace is bigger than Kim	Joy is bigger than Kim	Joy_3_true_affirm.wav
274.459	17.328	2_true_affirm	0.0	n/a	Wes is older than Pam	Pam is older than Tim	Tim is older than Wes	Wes is older than Tim	Wes_2_true_affirm.wav
291.78700000000003	17.296	2_true_negate	0.0	n/a	Dan is slower than Van	Van is slower than Luz	Luz is slower than Bev	Luz is not slower than Dan	Dan_2_true_negate.wav
309.08299999999997	16.687	2_true_negate	0.0	n/a	Ron is smaller than Sam	Sam is smaller than Ace	Ace is smaller than Joe	Ace is not smaller than Ron	Ron_2_true_negate.wav
325.77	16.878	2_false_negate	0.0	n/a	Tim is faster than Eve	Eve is faster than Fay	Fay is faster than Sam	Tim is not faster than Sam	Tim_3_false_negate.wav
342.648	17.227999999999998	2_true_affirm	0.0	n/a	Bud is slower than Joe	Joe is slower than Liz	Liz is slower than Rex	Bud is slower than Rex	Bud_3_true_affirm.wav
